 Units: T (K), Cp (kJ/kmole/K), H and H0 (MJ/kmole)

        S  (kJ/kmole/K), -(G-H0)/T (kJ/kmole/K)




 H         T           Cp        H        S         G    -(G-H0)/T
------------------------------------------------------------------
         298.000    20.786   217.974   114.593   183.825   114.593
         400.000    20.786   220.094   120.712   171.809   115.412
         500.000    20.786   222.173   125.350   159.497   116.953
         600.000    20.786   224.251   129.140   146.767   118.678
         700.000    20.786   226.330   132.344   133.689   120.407
         800.000    20.786   228.408   135.120   120.313   122.077
         900.000    20.786   230.487   137.568   106.676   123.665
        1000.000    20.786   232.566   139.758    92.808   125.166
        1100.000    20.786   234.644   141.739    78.731   126.584
        1200.000    20.786   236.723   143.548    64.465   127.924
        1300.000    20.786   238.801   145.211    50.026   129.190
        1400.000    20.786   240.880   146.752    35.427   130.390
        1500.000    20.786   242.958   148.186    20.680   131.530
        1600.000    20.786   245.037   149.527     5.793   132.613
        1700.000    20.786   247.116   150.788    -9.223   133.645
        1800.000    20.786   249.194   151.976   -24.362   134.631
        1900.000    20.786   251.273   153.099   -39.616   135.574
        2000.000    20.786   253.351   154.166   -54.980   136.477
        2100.000    20.786   255.430   155.180   -70.448   137.344
        2200.000    20.786   257.509   156.147   -86.014   138.176
        2300.000    20.786   259.587   157.071  -101.675   138.978
        2400.000    20.786   261.666   157.955  -117.427   139.750
        2500.000    20.786   263.744   158.804  -133.265   140.496
        2600.000    20.786   265.823   159.619  -149.187   141.216
        2700.000    20.786   267.901   160.404  -165.188   141.912
        2800.000    20.786   269.980   161.160  -181.267   142.586
        2900.000    20.786   272.059   161.889  -197.419   143.239
        3000.000    20.786   274.137   162.594  -213.643   143.872
        3100.000    20.786   276.216   163.275  -229.937   144.487
        3200.000    20.786   278.294   163.935  -246.298   145.085
        3300.000    20.786   280.373   164.575  -262.723   145.666
        3400.000    20.786   282.452   165.195  -279.212   146.231
        3500.000    20.786   284.530   165.798  -295.762   146.782
        3600.000    20.786   286.609   166.383  -312.371   147.318
        3700.000    20.786   288.687   166.953  -329.038   147.841
        3800.000    20.786   290.766   167.507  -345.761   148.351
        3900.000    20.786   292.845   168.047  -362.539   148.849
        4000.000    20.786   294.923   168.573  -379.370   149.336
        4100.000    20.786   297.002   169.087  -396.253   149.811
        4200.000    20.786   299.080   169.587  -413.187   150.276
        4300.000    20.786   301.159   170.077  -430.170   150.731
        4400.000    20.786   303.237   170.554  -447.202   151.176
        4500.000    20.786   305.316   171.022  -464.281   151.612
        4600.000    20.786   307.395   171.478  -481.406   152.039
        4700.000    20.786   309.473   171.925  -498.576   152.457
        4800.000    20.786   311.552   172.363  -515.791   152.868
        4900.000    20.786   313.630   172.792  -533.048   153.270
        5000.000    20.786   315.709   173.212  -550.349   153.665

 H0=   217.974





 H2        T           Cp        H        S         G    -(G-H0)/T
------------------------------------------------------------------
         298.000    28.871     -.002   130.579   -38.914   130.579
         400.000    29.120     2.957   139.115   -52.690   131.719
         500.000    29.275     5.877   145.631   -66.939   133.874
         600.000    29.375     8.810   150.978   -81.777   136.292
         700.000    29.461    11.751   155.512   -97.107   138.722
         800.000    29.581    14.703   159.454  -112.860   141.073
         900.000    29.792    17.671   162.949  -128.983   143.313
        1000.000    30.160    20.667   166.105  -145.438   145.436
        1100.000    30.625    23.706   169.001  -162.196   147.449
        1200.000    31.077    26.791   171.686  -179.232   149.358
        1300.000    31.516    29.921   174.190  -196.527   151.173
        1400.000    31.942    33.094   176.542  -214.065   152.902
        1500.000    32.356    36.309   178.760  -231.831   154.552
        1600.000    32.757    39.565   180.861  -249.813   156.132
        1700.000    33.146    42.860   182.858  -267.999   157.646
        1800.000    33.522    46.193   184.764  -286.381   159.100
        1900.000    33.885    49.564   186.586  -304.949   160.499
        2000.000    34.236    52.970   188.333  -323.696   161.847
        2100.000    34.574    56.411   190.011  -342.614   163.148
        2200.000    34.901    59.884   191.627  -361.696   164.406
        2300.000    35.215    63.390   193.186  -380.937   165.624
        2400.000    35.519    66.927   194.691  -400.331   166.804
        2500.000    35.810    70.494   196.147  -419.874   167.949
        2600.000    36.091    74.089   197.557  -439.559   169.061
        2700.000    36.361    77.711   198.924  -459.384   170.141
        2800.000    36.621    81.361   200.251  -479.343   171.193
        2900.000    36.871    85.035   201.541  -499.433   172.218
        3000.000    37.111    88.734   202.795  -519.650   173.216
        3100.000    37.343    92.457   204.015  -539.990   174.190
        3200.000    37.566    96.203   205.205  -560.452   175.141
        3300.000    37.781    99.970   206.364  -581.030   176.069
        3400.000    37.989   103.759   207.495  -601.724   176.977
        3500.000    38.190   107.568   208.599  -622.528   177.865
        3600.000    38.384   111.396   209.677  -643.442   178.733
        3700.000    38.574   115.244   210.732  -664.463   179.584
        3800.000    38.758   119.111   211.763  -685.588   180.417
        3900.000    38.939   122.996   212.772  -706.815   181.234
        4000.000    39.116   126.899   213.760  -728.142   182.035
        4100.000    39.291   130.819   214.728  -749.566   182.821
        4200.000    39.464   134.757   215.677  -771.087   183.592
        4300.000    39.636   138.712   216.608  -792.701   184.349
        4400.000    39.808   142.684   217.521  -814.408   185.092
        4500.000    39.981   146.673   218.417  -836.205   185.823
        4600.000    40.156   150.680   219.298  -858.091   186.541
        4700.000    40.334   154.704   220.163  -880.064   187.247
        4800.000    40.515   158.747   221.015  -902.123   187.942
        4900.000    40.702   162.808   221.852  -924.266   188.625
        5000.000    40.895   166.887   222.676  -946.493   189.298

 H0=     -.002





 H2O       T           Cp        H        S         G    -(G-H0)/T
------------------------------------------------------------------
         298.000    33.446  -241.848   188.696  -298.079   188.696
         400.000    34.437  -238.384   198.685  -317.858   190.026
         500.000    35.337  -234.896   206.466  -338.129   192.562
         600.000    36.288  -231.315   212.991  -359.110   195.437
         700.000    37.364  -227.634   218.664  -380.698   198.358
         800.000    38.587  -223.838   223.731  -402.822   201.218
         900.000    39.930  -219.912   228.353  -425.430   203.980
        1000.000    41.315  -215.850   232.632  -448.482   206.634
        1100.000    42.638  -211.652   236.632  -471.947   209.181
        1200.000    43.873  -207.325   240.396  -495.800   211.627
        1300.000    45.026  -202.880   243.953  -520.019   213.978
        1400.000    46.102  -198.323   247.330  -544.585   216.241
        1500.000    47.103  -193.662   250.545  -569.480   218.421
        1600.000    48.034  -188.905   253.615  -594.689   220.526
        1700.000    48.900  -184.057   256.554  -620.198   222.559
        1800.000    49.705  -179.126   259.372  -645.996   224.527
        1900.000    50.451  -174.118   262.079  -672.069   226.432
        2000.000    51.143  -169.038   264.685  -698.408   228.280
        2100.000    51.784  -163.891   267.196  -725.003   230.074
        2200.000    52.377  -158.683   269.619  -751.844   231.817
        2300.000    52.927  -153.417   271.959  -778.924   233.511
        2400.000    53.435  -148.099   274.223  -806.234   235.161
        2500.000    53.905  -142.732   276.414  -833.766   236.767
        2600.000    54.340  -137.319   278.537  -861.514   238.333
        2700.000    54.742  -131.865   280.595  -889.471   239.861
        2800.000    55.114  -126.372   282.593  -917.631   241.351
        2900.000    55.459  -120.843   284.533  -945.988   242.807
        3000.000    55.779  -115.281   286.418  -974.536   244.229
        3100.000    56.076  -109.688   288.252 -1003.270   245.620
        3200.000    56.352  -104.066   290.037 -1032.185   246.980
        3300.000    56.610   -98.418   291.775 -1061.276   248.312
        3400.000    56.850   -92.745   293.469 -1090.538   249.615
        3500.000    57.076   -87.049   295.120 -1119.968   250.892
        3600.000    57.288   -81.330   296.731 -1149.561   252.143
        3700.000    57.487   -75.591   298.303 -1179.313   253.369
        3800.000    57.676   -69.833   299.839 -1209.220   254.572
        3900.000    57.855   -64.057   301.339 -1239.280   255.752
        4000.000    58.026   -58.262   302.806 -1269.487   256.910
        4100.000    58.189   -52.452   304.241 -1299.840   258.047
        4200.000    58.346   -46.625   305.645 -1330.334   259.163
        4300.000    58.496   -40.783   307.020 -1360.968   260.260
        4400.000    58.641   -34.926   308.366 -1391.737   261.339
        4500.000    58.781   -29.055   309.686 -1422.640   262.398
        4600.000    58.916   -23.170   310.979 -1453.674   263.440
        4700.000    59.047   -17.272   312.248 -1484.835   264.465
        4800.000    59.173   -11.361   313.492 -1516.122   265.474
        4900.000    59.294    -5.437   314.713 -1547.533   266.466
        5000.000    59.411      .498   315.912 -1579.064   267.443

 H0=  -241.848





 O         T           Cp        H        S         G    -(G-H0)/T
------------------------------------------------------------------
         298.000    21.899   249.192   160.933   201.234   160.933
         400.000    21.500   251.404   167.319   184.476   161.789
         500.000    21.256   253.540   172.088   167.496   163.391
         600.000    21.113   255.658   175.950   150.088   165.172
         700.000    21.032   257.765   179.197   132.327   166.950
         800.000    20.986   259.866   182.003   114.264   168.660
         900.000    20.951   261.963   184.472    95.937   170.283
        1000.000    20.915   264.056   186.678    77.378   171.814
        1100.000    20.897   266.147   188.671    58.609   173.257
        1200.000    20.881   268.235   190.488    39.650   174.618
        1300.000    20.867   270.323   192.159    20.516   175.904
        1400.000    20.854   272.409   193.705     1.222   177.121
        1500.000    20.843   274.494   195.143   -18.221   178.275
        1600.000    20.834   276.578   196.488   -37.804   179.372
        1700.000    20.827   278.661   197.751   -57.516   180.416
        1800.000    20.822   280.743   198.941   -77.351   181.413
        1900.000    20.819   282.825   200.067   -97.302   182.365
        2000.000    20.819   284.907   201.135  -117.363   183.277
        2100.000    20.821   286.989   202.151  -137.528   184.152
        2200.000    20.825   289.071   203.119  -157.791   184.992
        2300.000    20.831   291.154   204.045  -178.150   185.801
        2400.000    20.840   293.238   204.932  -198.599   186.580
        2500.000    20.851   295.322   205.783  -219.135   187.331
        2600.000    20.865   297.408   206.601  -239.755   188.056
        2700.000    20.881   299.495   207.389  -260.454   188.758
        2800.000    20.899   301.584   208.148  -281.231   189.437
        2900.000    20.920   303.675   208.882  -302.083   190.095
        3000.000    20.944   305.768   209.592  -323.007   190.733
        3100.000    20.969   307.864   210.279  -344.001   191.352
        3200.000    20.997   309.962   210.945  -365.062   191.954
        3300.000    21.028   312.063   211.592  -386.189   192.540
        3400.000    21.060   314.168   212.220  -407.380   193.109
        3500.000    21.095   316.276   212.831  -428.633   193.664
        3600.000    21.132   318.387   213.426  -449.946   194.205
        3700.000    21.171   320.502   214.005  -471.317   194.732
        3800.000    21.212   322.621   214.570  -492.746   195.247
        3900.000    21.254   324.744   215.122  -514.231   195.749
        4000.000    21.298   326.872   215.661  -535.770   196.240
        4100.000    21.344   329.004   216.187  -557.362   196.721
        4200.000    21.392   331.141   216.702  -579.007   197.190
        4300.000    21.440   333.283   217.206  -600.703   197.650
        4400.000    21.490   335.429   217.699  -622.448   198.100
        4500.000    21.541   337.581   218.183  -644.242   198.541
        4600.000    21.593   339.737   218.657  -666.084   198.973
        4700.000    21.645   341.899   219.122  -687.973   199.397
        4800.000    21.698   344.066   219.578  -709.908   199.812
        4900.000    21.752   346.239   220.026  -731.888   200.220
        5000.000    21.805   348.417   220.466  -753.913   200.621

 H0=   249.192





 O2        T           Cp        H        S         G    -(G-H0)/T
------------------------------------------------------------------
         298.000    29.314     -.005   205.027   -61.103   205.027
         400.000    30.210     3.030   213.781   -82.482   206.192
         500.000    31.114     6.096   220.619  -104.213   208.416
         600.000    32.030     9.253   226.372  -126.570   210.941
         700.000    32.927    12.502   231.378  -149.463   213.511
         800.000    33.757    15.837   235.830  -172.827   216.027
         900.000    34.454    19.249   239.848  -196.614   218.454
        1000.000    34.935    22.720   243.505  -220.785   220.779
        1100.000    35.270    26.231   246.850  -245.305   223.000
        1200.000    35.592    29.774   249.933  -270.146   225.117
        1300.000    35.903    33.349   252.794  -295.284   227.138
        1400.000    36.202    36.954   255.466  -320.699   229.067
        1500.000    36.490    40.589   257.974  -346.372   230.911
        1600.000    36.768    44.252   260.338  -372.289   232.677
        1700.000    37.036    47.942   262.575  -398.435   234.371
        1800.000    37.295    51.659   264.699  -424.800   235.997
        1900.000    37.546    55.401   266.722  -451.372   237.561
        2000.000    37.788    59.167   268.654  -478.141   239.068
        2100.000    38.023    62.958   270.504  -505.100   240.521
        2200.000    38.250    66.772   272.278  -532.239   241.925
        2300.000    38.470    70.608   273.983  -559.553   243.282
        2400.000    38.684    74.465   275.625  -587.034   244.595
        2500.000    38.891    78.344   277.208  -614.676   245.868
        2600.000    39.093    82.244   278.737  -642.474   247.103
        2700.000    39.289    86.163   280.216  -670.422   248.302
        2800.000    39.479    90.101   281.649  -698.515   249.468
        2900.000    39.665    94.058   283.037  -726.750   250.602
        3000.000    39.846    98.034   284.385  -755.121   251.705
        3100.000    40.022   102.027   285.695  -783.626   252.781
        3200.000    40.194   106.038   286.968  -812.259   253.829
        3300.000    40.362   110.066   288.207  -841.018   254.852
        3400.000    40.526   114.111   289.415  -869.900   255.851
        3500.000    40.686   118.171   290.592  -898.900   256.827
        3600.000    40.842   122.248   291.740  -928.017   257.781
        3700.000    40.994   126.339   292.861  -957.247   258.714
        3800.000    41.142   130.446   293.956  -986.588   259.627
        3900.000    41.287   134.568   295.027 -1016.038   260.521
        4000.000    41.428   138.704   296.074 -1045.593   261.397
        4100.000    41.566   142.853   297.099 -1075.252   262.255
        4200.000    41.700   147.017   298.102 -1105.012   263.097
        4300.000    41.830   151.193   299.085 -1134.872   263.922
        4400.000    41.956   155.382   300.048 -1164.828   264.733
        4500.000    42.079   159.584   300.992 -1194.881   265.528
        4600.000    42.197   163.798   301.918 -1225.026   266.309
        4700.000    42.311   168.024   302.827 -1255.264   267.076
        4800.000    42.421   172.260   303.719 -1285.591   267.830
        4900.000    42.526   176.508   304.595 -1316.007   268.572
        5000.000    42.627   180.765   305.455 -1346.510   269.301

 H0=     -.005





 OH        T           Cp        H        S         G    -(G-H0)/T
------------------------------------------------------------------
         298.000    29.932    38.981   183.588   -15.728   183.588
         400.000    29.718    42.023   192.368   -34.924   184.763
         500.000    29.570    44.987   198.982   -54.504   186.971
         600.000    29.526    47.941   204.367   -74.680   189.435
         700.000    29.615    50.896   208.924   -95.350   191.902
         800.000    29.844    53.868   212.892  -116.445   194.283
         900.000    30.208    56.870   216.426  -137.914   196.550
        1000.000    30.682    59.913   219.633  -159.719   198.701
        1100.000    31.185    63.007   222.581  -181.832   200.739
        1200.000    31.662    66.150   225.315  -204.228   202.675
        1300.000    32.113    69.339   227.867  -226.889   204.516
        1400.000    32.540    72.572   230.263  -249.797   206.270
        1500.000    32.943    75.846   232.522  -272.937   207.946
        1600.000    33.323    79.159   234.660  -296.297   209.549
        1700.000    33.682    82.510   236.691  -319.866   211.086
        1800.000    34.019    85.895   238.626  -343.632   212.563
        1900.000    34.337    89.313   240.474  -367.588   213.984
        2000.000    34.635    92.762   242.243  -391.724   215.353
        2100.000    34.915    96.239   243.940  -416.034   216.674
        2200.000    35.178    99.744   245.570  -440.510   217.951
        2300.000    35.425   103.274   247.139  -465.146   219.186
        2400.000    35.655   106.829   248.652  -489.936   220.382
        2500.000    35.871   110.405   250.112  -514.875   221.542
        2600.000    36.073   114.002   251.523  -539.957   222.669
        2700.000    36.262   117.619   252.888  -565.178   223.763
        2800.000    36.439   121.254   254.210  -590.533   224.827
        2900.000    36.604   124.907   255.491  -616.018   225.862
        3000.000    36.759   128.575   256.735  -641.630   226.870
        3100.000    36.903   132.258   257.943  -667.364   227.853
        3200.000    37.038   135.955   259.116  -693.217   228.812
        3300.000    37.165   139.665   260.258  -719.186   229.748
        3400.000    37.285   143.388   261.369  -745.268   230.662
        3500.000    37.397   147.122   262.452  -771.459   231.554
        3600.000    37.504   150.867   263.507  -797.758   232.427
        3700.000    37.605   154.623   264.536  -824.160   233.281
        3800.000    37.701   158.388   265.540  -850.664   234.117
        3900.000    37.793   162.163   266.520  -877.267   234.935
        4000.000    37.882   165.947   267.478  -903.967   235.737
        4100.000    37.968   169.739   268.415  -930.762   236.523
        4200.000    38.052   173.540   269.331  -957.650   237.293
        4300.000    38.135   177.349   270.227  -984.628   238.049
        4400.000    38.217   181.167   271.105 -1011.694   238.790
        4500.000    38.299   184.993   271.965 -1038.848   239.518
        4600.000    38.382   188.827   272.807 -1066.087   240.232
        4700.000    38.466   192.669   273.634 -1093.409   240.934
        4800.000    38.552   196.520   274.444 -1120.813   241.624
        4900.000    38.640   200.380   275.240 -1148.297   242.302
        5000.000    38.731   204.248   276.022 -1175.860   242.968

 H0=    38.981





 N2        T           Cp        H        S         G    -(G-H0)/T
------------------------------------------------------------------
         298.000    29.070     -.003   191.495   -57.068   191.495
         400.000    29.319     2.975   200.086   -77.060   192.642
         500.000    29.635     5.921   206.661   -97.409   194.812
         600.000    30.086     8.906   212.101  -118.355   197.253
         700.000    30.684    11.944   216.782  -139.804   199.716
         800.000    31.394    15.047   220.925  -161.693   202.113
         900.000    32.131    18.223   224.666  -183.976   204.414
        1000.000    32.761    21.470   228.085  -206.616   206.613
        1100.000    33.258    24.771   231.231  -229.584   208.710
        1200.000    33.707    28.120   234.145  -252.854   210.709
        1300.000    34.112    31.511   236.859  -276.406   212.618
        1400.000    34.477    34.941   239.401  -300.220   214.441
        1500.000    34.805    38.405   241.791  -324.281   216.185
        1600.000    35.098    41.900   244.046  -348.574   217.857
        1700.000    35.361    45.424   246.182  -373.086   219.461
        1800.000    35.595    48.972   248.210  -397.807   221.002
        1900.000    35.803    52.542   250.140  -422.725   222.485
        2000.000    35.988    56.131   251.982  -447.832   223.914
        2100.000    36.152    59.739   253.742  -473.119   225.293
        2200.000    36.298    63.361   255.427  -498.578   226.625
        2300.000    36.427    66.998   257.043  -524.202   227.913
        2400.000    36.542    70.646   258.596  -549.984   229.159
        2500.000    36.645    74.306   260.090  -575.919   230.366
        2600.000    36.737    77.975   261.529  -602.000   231.537
        2700.000    36.820    81.653   262.917  -628.223   232.674
        2800.000    36.895    85.339   264.257  -654.582   233.778
        2900.000    36.964    89.032   265.553  -681.073   234.852
        3000.000    37.028    92.731   266.808  -707.691   235.896
        3100.000    37.087    96.437   268.023  -734.433   236.913
        3200.000    37.144   100.149   269.201  -761.295   237.904
        3300.000    37.198   103.866   270.345  -788.272   238.870
        3400.000    37.250   107.588   271.456  -815.363   239.812
        3500.000    37.302   111.316   272.537  -842.563   240.731
        3600.000    37.352   115.048   273.588  -869.869   241.629
        3700.000    37.402   118.786   274.612  -897.279   242.507
        3800.000    37.451   122.529   275.610  -924.791   243.365
        3900.000    37.501   126.276   276.584  -952.401   244.205
        4000.000    37.549   130.029   277.534  -980.107   245.026
        4100.000    37.597   133.786   278.462 -1007.907   245.830
        4200.000    37.643   137.548   279.368 -1035.798   246.618
        4300.000    37.688   141.315   280.254 -1063.780   247.390
        4400.000    37.729   145.086   281.121 -1091.848   248.147
        4500.000    37.768   148.860   281.970 -1120.003   248.889
        4600.000    37.802   152.639   282.800 -1148.242   249.617
        4700.000    37.831   156.421   283.613 -1176.563   250.332
        4800.000    37.854   160.205   284.410 -1204.964   251.034
        4900.000    37.868   163.991   285.191 -1233.444   251.723
        5000.000    37.872   167.778   285.956 -1262.002   252.400

 H0=     -.003





 NO        T           Cp        H        S         G    -(G-H0)/T
------------------------------------------------------------------
         298.000    29.727    90.292   210.636    27.523   210.636
         400.000    30.103    93.343   219.438     5.568   211.811
         500.000    30.570    96.376   226.203   -16.726   214.036
         600.000    31.174    99.462   231.828   -39.635   216.545
         700.000    31.908   102.615   236.687   -63.066   219.083
         800.000    32.715   105.846   241.000   -86.954   221.558
         900.000    33.489   109.157   244.899  -111.252   223.938
        1000.000    34.076   112.537   248.460  -135.923   226.215
        1100.000    34.483   115.965   251.727  -160.934   228.388
        1200.000    34.850   119.432   254.744  -186.260   230.460
        1300.000    35.179   122.934   257.546  -211.876   232.437
        1400.000    35.474   126.467   260.164  -237.763   234.325
        1500.000    35.737   130.028   262.621  -263.903   236.130
        1600.000    35.971   133.614   264.935  -290.282   237.859
        1700.000    36.179   137.221   267.122  -316.886   239.517
        1800.000    36.364   140.849   269.195  -343.703   241.108
        1900.000    36.527   144.493   271.166  -370.722   242.639
        2000.000    36.670   148.153   273.043  -397.933   244.113
        2100.000    36.797   151.827   274.836  -425.328   245.533
        2200.000    36.909   155.512   276.550  -452.898   246.904
        2300.000    37.008   159.208   278.193  -480.635   248.229
        2400.000    37.095   162.913   279.770  -508.534   249.511
        2500.000    37.173   166.627   281.286  -536.587   250.752
        2600.000    37.242   170.348   282.745  -564.789   251.954
        2700.000    37.305   174.075   284.152  -593.134   253.121
        2800.000    37.362   177.809   285.509  -621.618   254.254
        2900.000    37.415   181.547   286.821  -650.235   255.354
        3000.000    37.464   185.291   288.091  -678.981   256.424
        3100.000    37.511   189.040   289.320  -707.852   257.466
        3200.000    37.556   192.793   290.512  -736.844   258.480
        3300.000    37.599   196.551   291.668  -765.953   259.468
        3400.000    37.643   200.313   292.791  -795.176   260.432
        3500.000    37.685   204.080   293.883  -824.510   261.372
        3600.000    37.728   207.850   294.945  -853.952   262.290
        3700.000    37.771   211.625   295.979  -883.498   263.187
        3800.000    37.814   215.405   296.987  -913.147   264.063
        3900.000    37.857   219.188   297.970  -942.895   264.920
        4000.000    37.900   222.976   298.929  -972.740   265.758
        4100.000    37.942   226.768   299.865 -1002.680   266.578
        4200.000    37.983   230.565   300.780 -1032.712   267.382
        4300.000    38.023   234.365   301.674 -1062.835   268.169
        4400.000    38.059   238.169   302.549 -1093.046   268.941
        4500.000    38.093   241.977   303.405 -1123.344   269.697
        4600.000    38.122   245.787   304.242 -1153.727   270.439
        4700.000    38.145   249.601   305.062 -1184.192   271.167
        4800.000    38.162   253.416   305.866 -1214.738   271.881
        4900.000    38.171   257.233   306.653 -1245.365   272.583
        5000.000    38.170   261.050   307.424 -1276.068   273.272

 H0=    90.292





 N         T           Cp        H        S         G    -(G-H0)/T
------------------------------------------------------------------
         298.000    20.786   472.622   153.177   426.975   153.177
         400.000    20.785   474.742   159.296   411.024   153.996
         500.000    20.786   476.821   163.934   394.854   155.537
         600.000    20.786   478.899   167.724   378.265   157.262
         700.000    20.786   480.978   170.928   361.329   158.991
         800.000    20.786   483.057   173.704   344.094   160.660
         900.000    20.786   485.135   176.152   326.599   162.248
        1000.000    20.786   487.214   178.342   308.872   163.750
        1100.000    20.792   489.293   180.323   290.937   165.168
        1200.000    20.795   491.372   182.133   272.813   166.508
        1300.000    20.795   493.452   183.797   254.516   167.774
        1400.000    20.793   495.531   185.338   236.058   168.975
        1500.000    20.790   497.610   186.772   217.452   170.114
        1600.000    20.786   499.689   188.114   198.706   171.197
        1700.000    20.782   501.767   189.374   179.831   172.230
        1800.000    20.779   503.845   190.562   160.834   173.216
        1900.000    20.777   505.923   191.685   141.721   174.158
        2000.000    20.776   508.001   192.751   122.499   175.062
        2100.000    20.778   510.078   193.765   103.173   175.928
        2200.000    20.783   512.156   194.731    83.748   176.761
        2300.000    20.790   514.235   195.655    64.228   177.563
        2400.000    20.802   516.315   196.540    44.618   178.335
        2500.000    20.818   518.396   197.390    24.921   179.080
        2600.000    20.838   520.478   198.207     5.141   179.800
        2700.000    20.864   522.563   198.994   -14.719   180.497
        2800.000    20.894   524.651   199.753   -34.657   181.171
        2900.000    20.931   526.743   200.487   -54.669   181.825
        3000.000    20.974   528.838   201.197   -74.753   182.459
        3100.000    21.023   530.938   201.886   -94.908   183.074
        3200.000    21.080   533.043   202.554  -115.130   183.673
        3300.000    21.143   535.154   203.204  -135.418   184.255
        3400.000    21.214   537.271   203.836  -155.770   184.821
        3500.000    21.292   539.397   204.452  -176.185   185.373
        3600.000    21.378   541.530   205.053  -196.660   185.912
        3700.000    21.472   543.672   205.640  -217.195   186.437
        3800.000    21.575   545.825   206.214  -237.787   186.950
        3900.000    21.686   547.988   206.776  -258.437   187.451
        4000.000    21.805   550.162   207.326  -279.142   187.941
        4100.000    21.933   552.349   207.866  -299.902   188.420
        4200.000    22.070   554.549   208.396  -320.715   188.890
        4300.000    22.216   556.763   208.917  -341.581   189.350
        4400.000    22.371   558.993   209.430  -362.498   189.800
        4500.000    22.535   561.238   209.934  -383.466   190.242
        4600.000    22.708   563.500   210.431  -404.485   190.675
        4700.000    22.890   565.780   210.922  -425.552   191.101
        4800.000    23.082   568.079   211.406  -446.669   191.519
        4900.000    23.282   570.397   211.884  -467.833   191.930
        5000.000    23.491   572.735   212.356  -489.045   192.334

 H0=   472.622





 e-        T           Cp        H        S         G    -(G-H0)/T
------------------------------------------------------------------
         298.000    21.744      .001    21.933    -6.535    21.933
         400.000    21.744     2.219    28.334    -9.115    22.789
         500.000    21.744     4.393    33.186   -12.200    24.401
         600.000    21.744     6.567    37.150   -15.723    26.206
         700.000    21.744     8.742    40.502   -19.610    28.015
         800.000    21.744    10.916    43.406   -23.808    29.761
         900.000    21.744    13.091    45.967   -28.279    31.422
        1000.000    21.744    15.265    48.258   -32.993    32.993
        1100.000    21.744    17.439    50.330   -37.924    34.477
        1200.000    21.744    19.614    52.222   -43.053    35.878
        1300.000    21.744    21.788    53.962   -48.363    37.203
        1400.000    21.744    23.963    55.574   -53.841    38.458
        1500.000    21.744    26.137    57.074   -59.474    39.650
        1600.000    21.744    28.311    58.477   -65.252    40.783
        1700.000    21.744    30.486    59.796   -71.167    41.863
        1800.000    21.744    32.660    61.038   -77.209    42.894
        1900.000    21.744    34.835    62.214   -83.372    43.880
        2000.000    21.744    37.009    63.329   -89.650    44.825
        2100.000    21.744    39.184    64.390   -96.036    45.732
        2200.000    21.744    41.358    65.402  -102.526    46.603
        2300.000    21.744    43.532    66.368  -109.115    47.442
        2400.000    21.744    45.707    67.294  -115.798    48.250
        2500.000    21.744    47.881    68.181  -122.573    49.029
        2600.000    21.744    50.056    69.034  -129.434    49.782
        2700.000    21.744    52.230    69.855  -136.378    50.511
        2800.000    21.744    54.404    70.646  -143.404    51.216
        2900.000    21.744    56.579    71.409  -150.507    51.899
        3000.000    21.744    58.753    72.146  -157.685    52.562
        3100.000    21.744    60.928    72.859  -164.935    53.205
        3200.000    21.744    63.102    73.549  -172.256    53.830
        3300.000    21.744    65.276    74.218  -179.644    54.438
        3400.000    21.744    67.451    74.867  -187.099    55.029
        3500.000    21.744    69.625    75.498  -194.617    55.605
        3600.000    21.744    71.800    76.110  -202.197    56.166
        3700.000    21.744    73.974    76.706  -209.838    56.713
        3800.000    21.744    76.148    77.286  -217.538    57.247
        3900.000    21.744    78.323    77.851  -225.295    57.768
        4000.000    21.744    80.497    78.401  -233.108    58.277
        4100.000    21.744    82.672    78.938  -240.975    58.775
        4200.000    21.744    84.846    79.462  -248.895    59.261
        4300.000    21.744    87.020    79.974  -256.867    59.737
        4400.000    21.744    89.195    80.474  -264.889    60.202
        4500.000    21.744    91.369    80.962  -272.961    60.658
        4600.000    21.744    93.544    81.440  -281.082    61.105
        4700.000    21.744    95.718    81.908  -289.249    61.542
        4800.000    21.744    97.893    82.366  -297.463    61.972
        4900.000    21.744   100.067    82.814  -305.722    62.392
        5000.000    21.744   102.241    83.253  -314.025    62.805

 H0=      .001





 NO+       T           Cp        H        S         G    -(G-H0)/T
------------------------------------------------------------------
         298.000    29.069   990.270   198.102   931.236   198.102
         400.000    29.313   993.247   206.693   910.570   199.249
         500.000    29.622   996.193   213.265   889.561   201.418
         600.000    30.066   999.176   218.702   867.955   203.859
         700.000    30.657  1002.211   223.380   845.845   206.321
         800.000    31.361  1005.311   227.518   823.297   208.717
         900.000    32.096  1008.484   231.255   800.355   211.017
        1000.000    32.728  1011.727   234.671   777.056   213.214
        1100.000    33.229  1015.025   237.814   753.430   215.309
        1200.000    33.681  1018.371   240.725   729.501   217.307
        1300.000    34.090  1021.760   243.437   705.291   219.214
        1400.000    34.457  1025.188   245.977   680.819   221.036
        1500.000    34.788  1028.650   248.366   656.101   222.779
        1600.000    35.083  1032.144   250.621   631.150   224.450
        1700.000    35.348  1035.666   252.756   605.981   226.052
        1800.000    35.583  1039.213   254.783   580.603   227.593
        1900.000    35.793  1042.782   256.713   555.027   229.075
        2000.000    35.979  1046.370   258.554   529.263   230.503
        2100.000    36.145  1049.977   260.313   503.319   231.881
        2200.000    36.291  1053.599   261.998   477.203   233.212
        2300.000    36.422  1057.235   263.614   450.922   234.499
        2400.000    36.537  1060.883   265.167   424.482   235.745
        2500.000    36.640  1064.542   266.660   397.891   236.952
        2600.000    36.733  1068.210   268.099   371.152   238.122
        2700.000    36.816  1071.888   269.487   344.272   239.258
        2800.000    36.891  1075.573   270.827   317.256   240.362
        2900.000    36.959  1079.266   272.123   290.108   241.435
        3000.000    37.023  1082.965   273.377   262.833   242.479
        3100.000    37.082  1086.670   274.592   235.434   243.495
        3200.000    37.137  1090.381   275.770   207.916   244.486
        3300.000    37.191  1094.098   276.914   180.281   245.451
        3400.000    37.242  1097.819   278.025   152.534   246.393
        3500.000    37.292  1101.546   279.105   124.677   247.312
        3600.000    37.341  1105.278   280.157    96.714   248.210
        3700.000    37.390  1109.014   281.180    68.647   249.087
        3800.000    37.437  1112.755   282.178    40.479   249.945
        3900.000    37.484  1116.502   283.151    12.212   250.784
        4000.000    37.530  1120.252   284.101   -16.151   251.605
        4100.000    37.576  1124.008   285.028   -44.607   252.409
        4200.000    37.619  1127.767   285.934   -73.155   253.197
        4300.000    37.660  1131.531   286.820  -101.793   253.968
        4400.000    37.699  1135.299   287.686  -130.519   254.725
        4500.000    37.734  1139.071   288.534  -159.330   255.467
        4600.000    37.764  1142.846   289.363  -188.225   256.195
        4700.000    37.788  1146.624   290.176  -217.202   256.909
        4800.000    37.806  1150.403   290.971  -246.259   257.610
        4900.000    37.815  1154.184   291.751  -275.396   258.299
        5000.000    37.813  1157.966   292.515  -304.609   258.976

 H0=   990.270
